节点inter_Subt4__0__23.txt的数据

Date: Tue Dec 26 15:45:22 CST 2023
User: L-lab
Spectrometer: HR200306
触发模式: 0
积分时间 (秒): 1.000000E-1
Scans to average: 1
启用暗噪声校正: true
启用非线性校正: false
滑动平均宽度: 0
X轴模式: Wavelengths
Number of Pixels in Spectrum: 2110
>>>>>Begin Spectral Data<<<<<
183.73	9
184.199	44
184.668	49
185.137	-48
185.606	-3
186.075	44
186.543	6
187.012	-36
187.481	-89
187.95	48
188.419	-28
188.887	4
189.356	-19
189.825	-29
190.294	-27
190.762	29
191.231	-78
191.7	-23
192.168	-19
192.637	-59
193.105	-85
193.574	22
194.043	-42
194.511	-100
194.98	-80
195.448	-26
195.917	-78
196.385	-17
196.854	17
197.322	-56
197.79	-35
198.259	-52
198.727	-65
199.195	-64
199.664	-6
200.132	-49
200.6	-21
201.069	-79
201.537	-37
202.005	-25
202.473	-67
202.942	-2
203.41	-14
203.878	-60
204.346	-34
204.814	-98
205.282	-44
205.75	-80
206.218	-1
206.686	-93
207.155	-77
207.623	-44
208.091	-42
208.558	-83
209.026	-110
209.494	-14
209.962	-78
210.43	-56
210.898	-45
211.366	-99
211.834	-84
212.302	-56
212.769	9
213.237	-108
213.705	-21
214.173	-39
214.64	-45
215.108	-46
215.576	-1
216.043	-79
216.511	-90
216.979	-38
217.446	-46
217.914	-23
218.382	8
218.849	-40
219.317	-82
219.784	-100
220.252	62
220.719	0
221.187	27
221.654	-102
222.121	53
222.589	-24
223.056	-42
223.524	-90
223.991	-128
224.458	-69
224.926	-7
225.393	-85
225.86	-37
226.327	-74
226.795	-85
227.262	-60
227.729	13
228.196	-21
228.663	-12
229.13	-6
229.598	-33
230.065	-57
230.532	-72
230.999	-74
231.466	-25
231.933	1
232.4	-69
232.867	-43
233.334	-61
233.801	-34
234.268	-28
234.735	-46
235.201	-41
235.668	-28
236.135	0
236.602	15
237.069	8
237.536	-67
238.002	-33
238.469	-18
238.936	-89
239.403	-78
239.869	-99
240.336	-58
240.803	-1
241.269	-101
241.736	-52
242.202	-44
242.669	-27
243.136	-6
243.602	-2
244.069	-51
244.535	-83
245.002	-62
245.468	-41
245.934	-41
246.401	-98
246.867	-125
247.334	-1
247.8	-69
248.266	-65
248.733	-83
249.199	-36
249.665	-43
250.132	-9
250.598	-4
251.064	-18
251.53	-13
251.996	-58
252.463	-69
252.929	-95
253.395	99
253.861	-81
254.327	-83
254.793	-75
255.259	8
255.725	-74
256.191	-42
256.657	-18
257.123	-37
257.589	-15
258.055	-38
258.521	-87
258.987	-62
259.453	-59
259.919	-32
260.384	-26
260.85	-76
261.316	-35
261.782	-99
262.248	-54
262.713	-90
263.179	-110
263.645	16
264.11	-41
264.576	-19
265.042	-36
265.507	80
265.973	-10
266.439	-76
266.904	-25
267.37	-84
267.835	-61
268.301	-76
268.766	-21
269.232	-119
269.697	-66
270.162	-20
270.628	-24
271.093	-4
271.559	-49
272.024	-98
272.489	-55
272.955	-24
273.42	36
273.885	-72
274.35	25
274.816	-126
275.281	-51
275.746	-126
276.211	-77
276.676	-62
277.141	-92
277.607	20
278.072	-62
278.537	-29
279.002	-95
279.467	31
279.932	-149
280.397	-3
280.862	-24
281.327	-77
281.792	-17
282.257	-100
282.721	-49
283.186	-186
283.651	-41
284.116	-43
284.581	-17
285.046	-52
285.51	-92
285.975	-76
286.44	-63
286.905	-41
287.369	-25
287.834	-77
288.299	-42
288.763	-78
289.228	-81
289.692	-6
290.157	-81
290.621	-31
291.086	-53
291.55	-52
292.015	-67
292.479	-76
292.944	-74
293.408	-74
293.873	-100
294.337	-43
294.801	-103
295.266	-29
295.73	-19
296.194	-30
296.659	-77
297.123	-5
297.587	-6
298.052	-148
298.516	-75
298.98	-71
299.444	-6
299.908	-71
300.372	-19
300.836	-63
301.301	-21
301.765	-44
302.229	-40
302.693	-116
303.157	-52
303.621	-104
304.085	12
304.549	-19
305.013	-43
305.476	-84
305.94	-63
306.404	-94
306.868	-72
307.332	52
307.796	-4
308.259	-99
308.723	-40
309.187	-46
309.651	-45
310.114	-52
310.578	-10
311.042	-145
311.505	-45
311.969	-46
312.433	-82
312.896	-87
313.36	-118
313.823	-123
314.287	-14
314.75	-125
315.214	-56
315.677	-39
316.141	-60
316.604	-25
317.068	-109
317.531	-41
317.994	-82
318.458	-30
318.921	-122
319.384	-102
319.848	-90
320.311	-53
320.774	-66
321.237	-119
321.7	-48
322.164	-108
322.627	-43
323.09	-58
323.553	-24
324.016	9
324.479	-72
324.942	-20
325.405	-49
325.868	-82
326.331	-54
326.794	-79
327.257	-79
327.72	-88
328.183	-77
328.646	-104
329.109	-9
329.572	-36
330.034	-78
330.497	-38
330.96	-18
331.423	-100
331.886	-21
332.348	-107
332.811	-43
333.274	-98
333.736	-31
334.199	-70
334.662	-97
335.124	-92
335.587	-57
336.049	-39
336.512	-90
336.974	-102
337.437	-63
337.899	5
338.362	-64
338.824	-60
339.287	-32
339.749	-33
340.212	-60
340.674	-27
341.136	-46
341.599	-84
342.061	-40
342.523	-20
342.985	-11
343.448	-5
343.91	-86
344.372	-74
344.834	-85
345.296	-22
345.758	-44
346.221	-75
346.683	-48
347.145	-7
347.607	-100
348.069	-50
348.531	-112
348.993	-64
349.455	-94
349.917	-26
350.379	-37
350.84	-78
351.302	28
351.764	-59
352.226	-45
352.688	-42
353.15	-57
353.611	-58
354.073	-56
354.535	-56
354.997	-85
355.458	-22
355.92	-49
356.382	-121
356.843	-63
357.305	-86
357.767	-51
358.228	2
358.69	-74
359.151	-72
359.613	-64
360.074	-103
360.536	25
360.997	-122
361.458	-109
361.92	-58
362.381	-63
362.843	-62
363.304	-111
363.765	-96
364.227	-70
364.688	-67
365.149	-50
365.61	-21
366.072	-46
366.533	-76
366.994	-32
367.455	-8
367.916	-21
368.377	-58
368.838	-72
369.299	-61
369.761	-69
370.222	-135
370.683	-22
371.144	-80
371.604	-40
372.065	11
372.526	-52
372.987	-13
373.448	-102
373.909	-53
374.37	-86
374.831	-11
375.291	-46
375.752	-79
376.213	110
376.674	-32
377.134	40
377.595	-83
378.056	-111
378.516	-92
378.977	-17
379.438	-88
379.898	-1
380.359	-75
380.819	-58
381.28	-102
381.74	-53
382.201	3
382.661	-51
383.122	-67
383.582	-54
384.042	-118
384.503	-93
384.963	-103
385.424	-72
385.884	-79
386.344	-105
386.804	-57
387.265	-85
387.725	-23
388.185	-73
388.645	24
389.105	-18
389.566	-85
390.026	-37
390.486	-100
390.946	-85
391.406	-65
391.866	-15
392.326	-54
392.786	-58
393.246	-69
393.706	-46
394.166	-31
394.626	-100
395.085	56
395.545	-65
396.005	-63
396.465	-62
396.925	-58
397.385	-73
397.844	-33
398.304	-1
398.764	-65
399.223	-23
399.683	35
400.143	-44
400.602	-103
401.062	-50
401.522	-45
401.981	-101
402.441	-50
402.9	-68
403.36	-7
403.819	-70
404.279	-58
404.738	-49
405.197	-93
405.657	-81
406.116	-49
406.576	-87
407.035	-88
407.494	-61
407.953	-102
408.413	-75
408.872	-72
409.331	-56
409.79	-75
410.25	-71
410.709	-43
411.168	-23
411.627	-64
412.086	-44
412.545	-69
413.004	-80
413.463	-42
413.922	-80
414.381	-107
414.84	-21
415.299	-122
415.758	-87
416.217	-50
416.676	-51
417.135	-42
417.593	-31
418.052	-37
418.511	-42
418.97	-14
419.429	86
419.887	0
420.346	-117
420.805	-72
421.263	-61
421.722	-93
422.181	-52
422.639	-65
423.098	-13
423.556	-72
424.015	-56
424.473	-74
424.932	-22
425.39	-19
425.849	-79
426.307	-52
426.765	-42
427.224	-35
427.682	-149
428.14	-18
428.599	-120
429.057	-2
429.515	-132
429.974	-46
430.432	1
430.89	129
431.348	-96
431.806	-60
432.264	-48
432.723	6
433.181	-38
433.639	-6
434.097	-139
434.555	-48
435.013	-97
435.471	-93
435.929	-133
436.387	-64
436.845	-62
437.303	-14
437.76	-61
438.218	-24
438.676	58
439.134	-119
439.592	-78
440.049	-86
440.507	-79
440.965	-7
441.423	-103
441.88	-66
442.338	-59
442.796	-26
443.253	-93
443.711	-81
444.168	-137
444.626	7
445.083	-27
445.541	34
445.998	-48
446.456	-72
446.913	60
447.371	-98
447.828	-51
448.285	-18
448.743	-169
449.2	-60
449.657	-109
450.115	-132
450.572	-40
451.029	-78
451.486	-46
451.944	-48
452.401	-79
452.858	-68
453.315	-81
453.772	-52
454.229	-11
454.686	-59
455.143	-61
455.6	16
456.057	-68
456.514	27
456.971	-55
457.428	-65
457.885	-63
458.342	-53
458.799	-84
459.256	-25
459.712	-54
460.169	-6
460.626	-115
461.083	-71
461.539	-14
461.996	-25
462.453	-8
462.909	-76
463.366	-21
463.823	-102
464.279	-46
464.736	117
465.192	-119
465.649	-18
466.105	-60
466.562	-30
467.018	-47
467.475	-48
467.931	-51
468.388	38
468.844	-70
469.3	-73
469.757	-44
470.213	-109
470.669	-43
471.126	-98
471.582	-51
472.038	0
472.494	-9
472.95	-67
473.406	-113
473.863	-70
474.319	-28
474.775	61
475.231	-52
475.687	-32
476.143	-123
476.599	11
477.055	-39
477.511	1
477.967	-34
478.423	-117
478.879	-65
479.334	-33
479.79	-27
480.246	-84
480.702	-90
481.158	-46
481.613	-109
482.069	-38
482.525	-8
482.98	18
483.436	-94
483.892	-38
484.347	-65
484.803	-37
485.258	-50
485.714	-42
486.169	-82
486.625	-101
487.08	-22
487.536	-70
487.991	-72
488.447	0
488.902	-37
489.357	-23
489.813	-32
490.268	-10
490.723	-61
491.179	-17
491.634	18
492.089	-37
492.544	-86
493	-43
493.455	-85
493.91	10
494.365	-5
494.82	-37
495.275	-87
495.73	33
496.185	31
496.64	-5
497.095	-17
497.55	-38
498.005	-51
498.46	-63
498.915	3
499.37	-27
499.825	-56
500.279	-129
500.734	-88
501.189	-90
501.644	-57
502.098	-71
502.553	-79
503.008	-91
503.462	3
503.917	14
504.372	-131
504.826	32
505.281	-70
505.735	-35
506.19	-7
506.644	-64
507.099	-58
507.553	-89
508.008	-22
508.462	-17
508.917	-92
509.371	-80
509.825	10
510.28	97
510.734	-13
511.188	-26
511.642	-20
512.097	49
512.551	-66
513.005	-62
513.459	-101
513.913	20
514.367	-65
514.822	-50
515.276	-30
515.73	-27
516.184	-30
516.638	-60
517.092	-62
517.546	-28
517.999	-50
518.453	-66
518.907	-33
519.361	-72
519.815	-64
520.269	-45
520.723	-81
521.176	-38
521.63	-111
522.084	-2
522.538	-92
522.991	-53
523.445	-88
523.898	-21
524.352	-46
524.806	-46
525.259	-67
525.713	-93
526.166	-18
526.62	-20
527.073	-40
527.527	-84
527.98	-38
528.433	-49
528.887	-90
529.34	-31
529.794	-76
530.247	-62
530.7	-64
531.153	-44
531.607	-124
532.06	-43
532.513	-70
532.966	-15
533.419	-91
533.872	-38
534.326	-114
534.779	16
535.232	-36
535.685	-61
536.138	-26
536.591	46
537.044	-90
537.497	14
537.95	-81
538.402	-47
538.855	-91
539.308	6
539.761	-53
540.214	-2
540.667	-32
541.119	11
541.572	-85
542.025	24
542.477	-34
542.93	-60
543.383	-49
543.835	-76
544.288	-43
544.74	-136
545.193	-82
545.645	-57
546.098	-20
546.55	-58
547.003	-8
547.455	-31
547.908	-54
548.36	57
548.812	-40
549.265	-83
549.717	-65
550.169	-93
550.622	-83
551.074	-29
551.526	-110
551.978	-27
552.43	-79
552.883	3
553.335	-81
553.787	-80
554.239	-28
554.691	-61
555.143	-87
555.595	-39
556.047	-146
556.499	-52
556.951	-61
557.403	-56
557.855	-92
558.307	-3
558.758	-121
559.21	-30
559.662	-16
560.114	-103
560.565	-37
561.017	-42
561.469	-33
561.921	7
562.372	-48
562.824	-26
563.275	-30
563.727	-8
564.179	-103
564.63	-27
565.082	-87
565.533	-86
565.985	-69
566.436	-93
566.887	22
567.339	-59
567.79	-8
568.242	-6
568.693	29
569.144	-51
569.595	-109
570.047	-1
570.498	-59
570.949	-76
571.4	-43
571.851	-108
572.303	166
572.754	-99
573.205	-50
573.656	23
574.107	-48
574.558	-34
575.009	-65
575.46	-82
575.911	10
576.362	-44
576.813	-24
577.263	-38
577.714	-48
578.165	-71
578.616	-126
579.067	-22
579.517	-63
579.968	53
580.419	-72
580.87	-74
581.32	-107
581.771	-33
582.222	2
582.672	18
583.123	-27
583.573	8
584.024	46
584.474	26
584.925	-103
585.375	-47
585.826	-164
586.276	-77
586.726	-6
587.177	-48
587.627	-53
588.077	-96
588.528	-49
588.978	28
589.428	-82
589.878	-62
590.328	-113
590.779	16
591.229	-94
591.679	-31
592.129	-50
592.579	39
593.029	-122
593.479	-53
593.929	49
594.379	-61
594.829	-69
595.279	-25
595.729	-11
596.179	-54
596.628	-9
597.078	-42
597.528	-104
597.978	12
598.428	-9
598.877	-144
599.327	43
599.777	-83
600.226	-31
600.676	-90
601.126	-37
601.575	-97
602.025	-74
602.474	-5
602.924	-65
603.373	-26
603.823	-75
604.272	-47
604.722	62
605.171	-77
605.62	-121
606.07	-8
606.519	-82
606.968	-74
607.418	-21
607.867	18
608.316	-80
608.765	-4
609.214	-48
609.664	-69
610.113	-125
610.562	-19
611.011	-92
611.46	-33
611.909	-36
612.358	61
612.807	-38
613.256	-95
613.705	-8
614.154	-87
614.603	-103
615.051	-91
615.5	-49
615.949	-35
616.398	-43
616.847	-43
617.295	-6
617.744	-22
618.193	7
618.641	-49
619.09	-54
619.539	-39
619.987	-52
620.436	-105
620.884	-18
621.333	-34
621.781	-55
622.23	122
622.678	-71
623.127	-52
623.575	-101
624.024	-63
624.472	-49
624.92	-16
625.369	-142
625.817	-24
626.265	-37
626.713	-46
627.161	-49
627.61	-46
628.058	-36
628.506	-89
628.954	-37
629.402	-31
629.85	-59
630.298	-72
630.746	-142
631.194	-54
631.642	-21
632.09	-22
632.538	-23
632.986	-5
633.434	-33
633.882	-61
634.329	11
634.777	-17
635.225	-98
635.673	-43
636.12	27
636.568	-15
637.016	-94
637.463	14
637.911	-64
638.359	19
638.806	21
639.254	-17
639.701	-45
640.149	7
640.596	-32
641.044	-90
641.491	-43
641.938	-36
642.386	-16
642.833	27
643.281	-95
643.728	-106
644.175	-63
644.622	-14
645.07	-30
645.517	-86
645.964	-51
646.411	6
646.858	-60
647.305	-68
647.752	-86
648.199	-18
648.646	-7
649.093	-49
649.54	-104
649.987	0
650.434	-58
650.881	-56
651.328	-109
651.775	-28
652.222	-43
652.669	-87
653.115	-12
653.562	-58
654.009	-37
654.456	-58
654.902	-99
655.349	-84
655.796	-45
656.242	-67
656.689	13
657.135	-25
657.582	-105
658.028	4
658.475	-105
658.921	-65
659.368	-61
659.814	-55
660.26	-80
660.707	-68
661.153	-71
661.599	11
662.046	-98
662.492	-58
662.938	-67
663.384	22
663.831	-100
664.277	-13
664.723	-20
665.169	23
665.615	-115
666.061	-77
666.507	-8
666.953	0
667.399	-102
667.845	-21
668.291	-21
668.737	-46
669.183	-37
669.629	-62
670.075	-100
670.52	-90
670.966	-16
671.412	-74
671.858	-48
672.303	-110
672.749	2
673.195	-22
673.64	-41
674.086	-63
674.532	-32
674.977	-73
675.423	36
675.868	0
676.314	-87
676.759	60
677.205	-54
677.65	-91
678.095	-91
678.541	8
678.986	-44
679.431	-77
679.877	-43
680.322	-17
680.767	-55
681.212	-66
681.658	-16
682.103	-40
682.548	-26
682.993	-49
683.438	-5
683.883	-41
684.328	-24
684.773	-55
685.218	-52
685.663	-11
686.108	-27
686.553	29
686.998	-67
687.443	5
687.887	6
688.332	-74
688.777	-34
689.222	-26
689.667	-101
690.111	19
690.556	-23
691.001	-72
691.445	140
691.89	-115
692.334	-84
692.779	-93
693.223	-21
693.668	6
694.112	-55
694.557	-61
695.001	-45
695.446	-27
695.89	15
696.334	-71
696.779	14
697.223	-19
697.667	-117
698.112	-50
698.556	-40
699	-48
699.444	-147
699.888	-26
700.332	71
700.777	-97
701.221	-20
701.665	95
702.109	-104
702.553	72
702.997	46
703.441	-86
703.885	-74
704.328	-47
704.772	-46
705.216	-73
705.66	-68
706.104	-32
706.548	-32
706.991	-156
707.435	11
707.879	-80
708.322	-24
708.766	-50
709.21	-76
709.653	22
710.097	-59
710.54	-2
710.984	-66
711.427	25
711.871	-63
712.314	313
712.758	-46
713.201	-13
713.644	-108
714.088	10
714.531	-33
714.974	-10
715.418	-53
715.861	-47
716.304	-9
716.747	-5
717.19	-45
717.634	-32
718.077	-69
718.52	-39
718.963	-64
719.406	-93
719.849	-63
720.292	-28
720.735	-86
721.178	1
721.621	-92
722.063	47
722.506	4
722.949	64
723.392	-35
723.835	-41
724.277	-17
724.72	-28
725.163	-47
725.605	-119
726.048	-30
726.491	-45
726.933	3
727.376	-4
727.818	-67
728.261	28
728.703	20
729.146	2
729.588	-33
730.031	37
730.473	34
730.916	83
731.358	12
731.8	53
732.242	25
732.685	-53
733.127	-40
733.569	21
734.011	5
734.453	-11
734.896	51
735.338	28
735.78	-16
736.222	27
736.664	-22
737.106	52
737.548	72
737.99	82
738.432	11
738.874	11
739.315	27
739.757	113
740.199	0
740.641	29
741.083	61
741.524	89
741.966	18
742.408	150
742.849	69
743.291	50
743.733	161
744.174	97
744.616	136
745.057	126
745.499	110
745.94	167
746.382	87
746.823	189
747.265	110
747.706	179
748.147	198
748.589	215
749.03	196
749.471	217
749.913	203
750.354	260
750.795	181
751.236	305
751.677	296
752.118	231
752.559	377
753.001	324
753.442	350
753.883	363
754.324	308
754.765	374
755.205	398
755.646	444
756.087	376
756.528	508
756.969	656
757.41	671
757.851	647
758.291	605
758.732	686
759.173	832
759.613	855
760.054	807
760.495	790
760.935	1021
761.376	1013
761.816	1034
762.257	970
762.697	1088
763.138	1408
763.578	1472
764.019	1585
764.459	1356
764.899	1417
765.34	1788
765.78	1881
766.22	1840
766.661	1641
767.101	1832
767.541	2211
767.981	2425
768.421	2229
768.861	2002
769.302	2166
769.742	2681
770.182	3031
770.622	2909
771.062	2423
771.502	2713
771.942	3222
772.382	3975
772.821	3837
773.261	3001
773.701	3163
774.141	3843
774.581	4822
775.02	5183
775.46	4134
775.9	3882
776.34	4700
776.779	6123
777.219	6113
777.658	5234
778.098	4537
778.538	4923
778.977	7026
779.417	7979
779.856	7103
780.295	5893
780.735	5470
781.174	7386
781.614	9317
782.053	9244
782.492	7521
782.931	6382
783.371	7652
783.81	10070
784.249	11141
784.688	10665
785.127	8028
785.567	7610
786.006	9803
786.445	12464
786.884	12880
787.323	10019
787.762	8279
788.201	9389
788.64	12112
789.079	15104
789.517	12924
789.956	9635
790.395	9107
790.834	11279
791.273	15053
791.711	14322
792.15	10894
792.589	8938
793.028	9911
793.466	13748
793.905	15658
794.343	12919
794.782	9714
795.22	8939
795.659	12537
796.097	16144
796.536	15212
796.974	12126
797.413	9234
797.851	10264
798.289	14347
798.728	15868
799.166	14314
799.604	11104
800.043	9113
800.481	11904
800.919	14343
801.357	14644
801.795	12335
802.233	8839
802.672	9094
803.11	12084
803.548	13607
803.986	12622
804.424	9286
804.862	7208
805.299	8873
805.737	11107
806.175	12293
806.613	9630
807.051	6673
807.489	6308
807.926	8107
808.364	10650
808.802	11109
809.24	8042
809.677	5547
810.115	5655
810.552	7360
810.99	9456
811.427	9481
811.865	7192
812.303	5280
812.74	4506
813.177	5469
813.615	6968
814.052	7109
814.49	6102
814.927	4582
815.364	3098
815.801	2633
816.239	2949
816.676	2985
817.113	3137
817.55	2982
817.987	2458
818.425	1740
818.862	1454
819.299	1289
819.736	1484
820.173	2044
820.61	2861
821.047	3408
821.484	3773
821.92	3472
822.357	2883
822.794	1962
823.231	1408
823.668	1230
824.105	959
824.541	974
824.978	1113
825.415	1392
825.851	1685
826.288	1902
826.725	2233
827.161	2072
827.598	1790
828.034	1319
828.471	1036
828.907	772
829.344	717
829.78	657
830.216	777
830.653	775
831.089	824
831.525	742
831.962	620
832.398	588
832.834	580
833.27	634
833.707	594
834.143	802
834.579	703
835.015	535
835.451	443
835.887	556
836.323	537
836.759	479
837.195	487
837.631	397
838.067	388
838.503	425
838.938	424
839.374	330
839.81	578
840.246	208
840.682	408
841.117	388
841.553	403
841.989	327
842.424	374
842.86	321
843.295	292
843.731	294
844.166	247
844.602	243
845.037	292
845.473	199
845.908	291
846.344	222
846.779	183
847.214	153
847.649	197
848.085	145
848.52	179
848.955	105
849.39	122
849.826	133
850.261	61
850.696	98
851.131	96
851.566	50
852.001	81
852.436	125
852.871	109
853.306	-10
853.741	81
854.176	-29
854.61	77
855.045	71
855.48	86
855.915	-24
856.35	13
856.784	-13
857.219	-16
857.654	39
858.088	2
858.523	-24
858.958	-34
859.392	-25
859.827	12
860.261	-84
860.696	30
861.13	20
861.564	16
861.999	10
862.433	-3
862.868	-43
863.302	63
863.736	-93
864.17	-4
864.605	-76
865.039	-58
865.473	-21
865.907	-32
866.341	-20
866.775	-35
867.209	43
867.643	-37
868.077	2
868.511	52
868.945	-34
869.379	20
869.813	4
870.247	40
870.681	-16
871.115	-1
871.548	-85
871.982	-68
872.416	-71
872.85	-13
873.283	-9
873.717	122
874.151	4
874.584	-38
875.018	-18
875.451	-8
875.885	-25
876.318	-25
876.752	-48
877.185	-7
877.618	-32
878.052	-100
878.485	-52
878.918	-88
879.352	-85
879.785	-47
880.218	11
880.651	-24
881.085	109
881.518	-31
881.951	-16
882.384	-32
882.817	-16
883.25	-58
883.683	-66
884.116	-19
884.549	-72
884.982	-64
885.415	-113
885.848	-53
886.28	-29
886.713	-73
887.146	-73
887.579	-50
888.012	7
888.444	2
888.877	-63
889.31	-62
889.742	-10
890.175	-72
890.607	-23
891.04	-15
891.472	-93
891.905	-34
892.337	-107
892.77	9
893.202	-47
893.634	-45
894.067	-45
894.499	-89
894.931	34
895.364	-94
895.796	-24
896.228	-29
896.66	-23
897.092	76
897.524	-39
897.956	-68
898.389	-65
898.821	-33
899.253	53
899.685	-54
900.116	-27
900.548	-123
900.98	-35
901.412	-44
901.844	-110
902.276	-25
902.708	51
903.139	-29
903.571	35
904.003	-89
904.434	104
904.866	-6
905.298	-8
905.729	-43
906.161	-146
906.592	-62
907.024	-27
907.455	-78
907.887	167
908.318	-28
908.749	60
909.181	-27
909.612	-15
910.043	-13
910.475	-65
910.906	-18
911.337	-33
911.768	-16
912.199	-108
912.63	-17
913.062	-54
913.493	-16
913.924	-99
914.355	61
914.786	-123
915.217	-19
915.648	-38
916.078	-22
916.509	-62
916.94	-74
917.371	-66
917.802	-38
918.233	-2
918.663	-102
919.094	-62
919.525	-50
919.955	-40
920.386	-21
920.816	-3
921.247	-38
921.678	12
922.108	-34
922.539	-62
922.969	-44
923.399	-4
923.83	-60
924.26	64
924.69	28
925.121	-12
925.551	-53
925.981	-121
926.412	20
926.842	1
927.272	-57
927.702	-7
928.132	-34
928.562	18
928.992	-53
929.422	14
929.852	15
930.282	-5
930.712	36
931.142	10
931.572	-55
932.002	-8
932.432	-99
932.861	4
933.291	-94
933.721	64
934.151	-113
934.58	-52
935.01	-13
935.439	-33
935.869	-4
936.299	-71
936.728	-70
937.158	-10
937.587	-12
938.017	-94
938.446	-87
938.875	-24
939.305	-56
939.734	-52
940.163	0
940.593	-72
941.022	-22
941.451	-53
941.88	-13
942.309	-72
942.739	-13
943.168	-35
943.597	23
944.026	-16
944.455	-98
944.884	47
945.313	-27
945.742	-62
946.171	-67
946.6	-46
947.028	-64
947.457	-23
947.886	-65
948.315	35
948.743	25
949.172	-13
949.601	-37
950.029	-109
950.458	17
950.887	-44
951.315	-47
951.744	-4
952.172	-51
952.601	-115
953.029	-18
953.458	-67
953.886	-110
954.314	-15
954.743	36
955.171	-34
955.599	-35
956.027	-14
956.456	27
956.884	-69
957.312	66
957.74	-38
958.168	39
958.596	-129
959.024	-67
959.452	-5
959.88	-73
960.308	-44
960.736	-77
961.164	5
961.592	-95
962.02	-28
962.448	-85
962.875	-11
963.303	-22
963.731	-6
964.159	-84
964.586	-94
965.014	25
965.441	-100
965.869	-53
966.297	-42
966.724	-28
967.152	-17
967.579	-84
968.006	-8
968.434	-24
968.861	-50
969.289	-66
969.716	-42
970.143	-139
970.57	62
970.998	-84
971.425	-41
971.852	-76
972.279	-37
972.706	-99
973.133	140
973.56	-50
973.987	-49
974.414	-61
974.841	17
975.268	-15
975.695	-42
976.122	-40
976.549	-20
976.976	-90
977.403	220
977.829	-15
978.256	6
978.683	-130
979.109	-47
979.536	-25
979.963	-61
980.389	-77
980.816	-25
981.242	-33
981.669	-107
982.095	37
982.522	-98
982.948	12
983.375	-90
983.801	-49
984.227	2
984.653	7
985.08	-60
985.506	50
985.932	-13
986.358	-86
986.785	-27
987.211	-14
987.637	-112
988.063	-5
988.489	-17
988.915	-94
989.341	-46
989.767	41
990.193	-63
990.619	-77
991.044	-62
991.47	31
991.896	-78
992.322	-41
992.748	-13
993.173	-20
993.599	-45
994.025	-36
994.45	-43
994.876	-71
995.301	-82
995.727	-60
996.152	-17
996.578	14
997.003	-8
997.429	-43
997.854	-51
998.279	-34
998.705	-58
999.13	-19
999.555	29
999.981	-27
1000.406	-41
1000.831	-49
1001.256	-10
1001.681	64
1002.106	-81
1002.531	-50
1002.956	1
1003.381	4
1003.806	-119
1004.231	26
1004.656	-74
1005.081	-91
1005.506	-55
1005.931	6
1006.356	12
1006.78	-23
1007.205	-57
1007.63	42
1008.054	-75
1008.479	-66
1008.904	-24
1009.328	-53
1009.753	-61
1010.177	-14
1010.602	-12
1011.026	-22
1011.451	-141
1011.875	-21
1012.3	-27
1012.724	-65
1013.148	6
1013.572	-35
1013.997	-38
1014.421	-53
1014.845	-62
1015.269	0
1015.694	-38
1016.118	-64
1016.542	-81
1016.966	-55
1017.39	-13
1017.814	-86
1018.238	117
1018.662	-104
1019.086	-67
1019.509	15
1019.933	-110
1020.357	-70
1020.781	-19
1021.205	-98
1021.628	-54
1022.052	-72
1022.476	-28
1022.899	-75
1023.323	-64
1023.747	-3
1024.17	-65
1024.594	-12
1025.017	-89
1025.441	-83
1025.864	-77
1026.287	-88
1026.711	-103
1027.134	-75
1027.557	-92
1027.981	-25
1028.404	-43
1028.827	-89
1029.25	-11
1029.673	-79
1030.097	-2
1030.52	-117
1030.943	35
1031.366	-54
1031.789	46
1032.212	-88
1032.635	-25
1033.058	-44
1033.481	-30
1033.903	-27
1034.326	-56
1034.749	-63
1035.172	-50
1035.595	-40
1036.017	-48
1036.44	-72
1036.863	-3
1037.285	-62
1037.708	-53
1038.13	-67
1038.553	-13
1038.975	-73
1039.398	-15
1039.82	-45
1040.243	36
1040.665	-136
1041.087	-51
1041.51	-28
1041.932	-31
1042.354	-57
1042.777	-45
1043.199	-16
1043.621	-24
1044.043	27
1044.465	-70
1044.887	13
1045.309	-25
1045.731	-27
1046.153	-92
1046.575	-82
1046.997	-44
1047.419	18
1047.841	-83
1048.263	-31
1048.685	-56
1049.106	-12
1049.528	-59
1049.95	-39
1050.372	24
1050.793	-48
1051.215	158
1051.636	-85
1052.058	-53
1052.48	-71
1052.901	-48
1053.323	-148
1053.744	-65
1054.165	-153
1054.587	-108
1055.008	-29
1055.429	-47
1055.851	-20
1056.272	-42
1056.693	23
1057.114	-67
1057.536	-26
1057.957	-45
1058.378	-95
1058.799	4
1059.22	-98
1059.641	-57
1060.062	1
1060.483	-14
1060.904	-131
1061.325	-20
1061.746	-33
1062.166	-34
1062.587	-26
1063.008	-47
1063.429	-23
1063.85	17
1064.27	-44
1064.691	160
1065.112	-53
1065.532	-48
1065.953	-116
1066.373	-20
1066.794	38
1067.214	-22
1067.635	-28
1068.055	-46
1068.475	35
1068.896	2
1069.316	-78
1069.736	18
1070.157	-85
1070.577	-78
1070.997	4
1071.417	-20
1071.837	-11
1072.258	-31
1072.678	-69
1073.098	-27
1073.518	-73
1073.938	-93
1074.358	-66
1074.778	-48
1075.197	-33
1075.617	-42
1076.037	-34
1076.457	50
1076.877	-38
1077.296	-7
1077.716	-66
1078.136	-16
1078.556	-26
1078.975	-54
1079.395	-62
1079.814	-28
1080.234	-82
1080.653	-77
1081.073	-51
1081.492	-69
1081.912	-17
1082.331	-35
1082.75	-55
1083.17	-34
1083.589	-84
1084.008	-67
1084.427	-37
1084.847	-50
1085.266	-2
1085.685	-21
1086.104	-26
1086.523	-45
1086.942	-109
1087.361	-4
1087.78	-74
1088.199	3
1088.618	106
1089.037	-28
1089.456	-76
1089.875	-12
1090.293	-65
1090.712	-12
1091.131	-25
1091.55	20
1091.968	-65
1092.387	20
1092.805	-73
1093.224	-19
1093.643	-97
1094.061	-62
1094.48	-28
1094.898	-79
1095.316	-53
1095.735	-73
1096.153	14
1096.572	-50
1096.99	-99
1097.408	5
1097.826	-15
1098.245	-22
1098.663	-85
1099.081	-50
1099.499	-30
1099.917	-33
1100.335	-47
1100.753	-81
1101.171	-85
1101.589	-74
1102.007	-34
1102.425	17
1102.843	-10
1103.261	-80
1103.678	-51
1104.096	-94
1104.514	-89
1104.932	38
1105.349	-46
1105.767	23
1106.185	-66
1106.602	-47
1107.02	-84
1107.437	-17
1107.855	-19
1108.272	-62
1108.69	-61
1109.107	-31
1109.524	-74
1109.942	-90
1110.359	-9
1110.776	-49
1111.194	-20
1111.611	-2
1112.028	-46
1112.445	-4
1112.862	-21
1113.279	-32
1113.696	78
1114.114	-57
1114.531	-55
1114.947	-82
1115.364	8
1115.781	-104
1116.198	-38
1116.615	-63
1117.032	-5
1117.449	-7
1117.865	-50
1118.282	-39
1118.699	-91
1119.115	-91
1119.532	-73
1119.949	-22
1120.365	-58
1120.782	-71
1121.198	-11
1121.615	-39
1122.031	4
